#K-Path(1/A) Energy-Level(eV)
# NKPTS & NBANDS: 120  24
# Band-Index    1
   0.00000    -14.638659
   0.02129    -14.637474
   0.04257    -14.633923
   0.06386    -14.628021
   0.08514    -14.619796
   0.10643    -14.609289
   0.12771    -14.596546
   0.14900    -14.581630
   0.17028    -14.564612
   0.19157    -14.545574
   0.21285    -14.524615
   0.23414    -14.501840
   0.25543    -14.477363
   0.27671    -14.451318
   0.29800    -14.423845
   0.31928    -14.395099
   0.34057    -14.365247
   0.36185    -14.334459
   0.38314    -14.302927
   0.40442    -14.270844
   0.42571    -14.238414
   0.44700    -14.205861
   0.46828    -14.173390
   0.48957    -14.141236
   0.51085    -14.109618
   0.53214    -14.078769
   0.55342    -14.048909
   0.57471    -14.020266
   0.59599    -13.993051
   0.61728    -13.967465
   0.63856    -13.943705
   0.65985    -13.921946
   0.68114    -13.902356
   0.70242    -13.885077
   0.72371    -13.870236
   0.74499    -13.857950
   0.76628    -13.848303
   0.78756    -13.841363
   0.80885    -13.837175
   0.83013    -13.835777
   0.83013    -13.835777
   0.84242    -13.835694
   0.85471    -13.835439
   0.86701    -13.835013
   0.87930    -13.834420
   0.89159    -13.833659
   0.90388    -13.832740
   0.91617    -13.831663
   0.92846    -13.830436
   0.94075    -13.829058
   0.95304    -13.827542
   0.96533    -13.825886
   0.97762    -13.824105
   0.98991    -13.822196
   1.00220    -13.820181
   1.01449    -13.818060
   1.02678    -13.815849
   1.03907    -13.813553
   1.05136    -13.811190
   1.06365    -13.808763
   1.07594    -13.806290
   1.08823    -13.803787
   1.10052    -13.801267
   1.11281    -13.798737
   1.12510    -13.796218
   1.13739    -13.793726
   1.14968    -13.791272
   1.16197    -13.788882
   1.17426    -13.786570
   1.18655    -13.784348
   1.19884    -13.782238
   1.21114    -13.780263
   1.22343    -13.778438
   1.23572    -13.776784
   1.24801    -13.775330
   1.26030    -13.774087
   1.27259    -13.773079
   1.28488    -13.772332
   1.29717    -13.771865
   1.30946    -13.771701
   1.30946    -13.771701
   1.33404    -13.772375
   1.35862    -13.774537
   1.38320    -13.778366
   1.40778    -13.784035
   1.43236    -13.791705
   1.45694    -13.801537
   1.48152    -13.813654
   1.50610    -13.828169
   1.53068    -13.845152
   1.55526    -13.864635
   1.57985    -13.886617
   1.60443    -13.911048
   1.62901    -13.937835
   1.65359    -13.966842
   1.67817    -13.997880
   1.70275    -14.030731
   1.72733    -14.065142
   1.75191    -14.100832
   1.77649    -14.137495
   1.80107    -14.174823
   1.82565    -14.212485
   1.85023    -14.250156
   1.87481    -14.287516
   1.89939    -14.324253
   1.92397    -14.360065
   1.94856    -14.394664
   1.97314    -14.427783
   1.99772    -14.459173
   2.02230    -14.488594
   2.04688    -14.515843
   2.07146    -14.540730
   2.09604    -14.563083
   2.12062    -14.582751
   2.14520    -14.599610
   2.16978    -14.613551
   2.19436    -14.624486
   2.21894    -14.632346
   2.24352    -14.637079
   2.26810    -14.638659
 
# Band-Index    2
   2.26810    -11.400044
   2.24352    -11.399113
   2.21894    -11.396330
   2.19436    -11.391713
   2.16978    -11.385288
   2.14520    -11.377109
   2.12062    -11.367214
   2.09604    -11.355681
   2.07146    -11.342574
   2.04688    -11.327994
   2.02230    -11.312038
   1.99772    -11.294822
   1.97314    -11.276467
   1.94856    -11.257120
   1.92397    -11.236927
   1.89939    -11.216048
   1.87481    -11.194661
   1.85023    -11.172943
   1.82565    -11.151093
   1.80107    -11.129314
   1.77649    -11.112794
   1.75191    -11.123961
   1.72733    -11.132568
   1.70275    -11.138470
   1.67817    -11.141613
   1.65359    -11.141981
   1.62901    -11.139629
   1.60443    -11.134678
   1.57985    -11.127332
   1.55526    -11.117819
   1.53068    -11.106438
   1.50610    -11.093530
   1.48152    -11.079467
   1.45694    -11.064635
   1.43236    -11.049430
   1.40778    -11.034234
   1.38320    -11.019403
   1.35862    -11.005258
   1.33404    -10.992070
   1.30946    -10.980548
   1.30946    -10.980548
   1.29717    -10.986006
   1.28488    -10.992187
   1.27259    -10.998668
   1.26030    -11.005419
   1.24801    -11.012403
   1.23572    -11.019595
   1.22343    -11.026970
   1.21114    -11.034493
   1.19884    -11.042134
   1.18655    -11.049862
   1.17426    -11.057649
   1.16197    -11.065461
   1.14968    -11.073272
   1.13739    -11.081057
   1.12510    -11.088782
   1.11281    -11.096418
   1.10052    -11.103944
   1.08823    -11.111328
   1.07594    -11.118545
   1.06365    -11.125575
   1.05136    -11.132393
   1.03907    -11.138971
   1.02678    -11.145293
   1.01449    -11.151337
   1.00220    -11.157085
   0.98991    -11.162517
   0.97762    -11.167620
   0.96533    -11.172368
   0.95304    -11.176759
   0.94075    -11.180773
   0.92846    -11.184395
   0.91617    -11.187619
   0.90388    -11.190430
   0.89159    -11.192824
   0.87930    -11.194794
   0.86701    -11.196332
   0.85471    -11.197433
   0.84242    -11.198095
   0.83013    -11.198317
   0.83013    -11.198317
   0.80885    -11.198270
   0.78756    -11.198111
   0.76628    -11.197777
   0.74499    -11.197175
   0.72371    -11.196199
   0.70242    -11.194712
   0.68114    -11.192560
   0.65985    -11.189596
   0.63856    -11.185676
   0.61728    -11.180670
   0.59599    -11.174470
   0.57471    -11.166984
   0.55342    -11.158183
   0.53214    -11.148040
   0.51085    -11.136595
   0.48957    -11.124440
   0.46828    -11.129728
   0.44700    -11.147942
   0.42571    -11.166615
   0.40442    -11.185334
   0.38314    -11.203908
   0.36185    -11.222196
   0.34057    -11.240096
   0.31928    -11.257477
   0.29800    -11.274238
   0.27671    -11.290275
   0.25543    -11.305497
   0.23414    -11.319815
   0.21285    -11.333146
   0.19157    -11.345420
   0.17028    -11.356576
   0.14900    -11.366556
   0.12771    -11.375306
   0.10643    -11.382789
   0.08514    -11.388962
   0.06386    -11.393792
   0.04257    -11.397255
   0.02129    -11.399346
   0.00000    -11.400044
 
# Band-Index    3
   0.00000    -10.783790
   0.02129    -10.784918
   0.04257    -10.788288
   0.06386    -10.793859
   0.08514    -10.801547
   0.10643    -10.811245
   0.12771    -10.822830
   0.14900    -10.836155
   0.17028    -10.851043
   0.19157    -10.867311
   0.21285    -10.884748
   0.23414    -10.903157
   0.25543    -10.922305
   0.27671    -10.941980
   0.29800    -10.961965
   0.31928    -10.982038
   0.34057    -11.002005
   0.36185    -11.021640
   0.38314    -11.040771
   0.40442    -11.059192
   0.42571    -11.076737
   0.44700    -11.093234
   0.46828    -11.108226
   0.48957    -11.109304
   0.51085    -11.091995
   0.53214    -11.074538
   0.55342    -11.057623
   0.57471    -11.041444
   0.59599    -11.026141
   0.61728    -11.011819
   0.63856    -10.998590
   0.65985    -10.986534
   0.68114    -10.975739
   0.70242    -10.966269
   0.72371    -10.958177
   0.74499    -10.951517
   0.76628    -10.946322
   0.78756    -10.942593
   0.80885    -10.940348
   0.83013    -10.939600
   0.83013    -10.939600
   0.84242    -10.939567
   0.85471    -10.939452
   0.86701    -10.939262
   0.87930    -10.938999
   0.89159    -10.938663
   0.90388    -10.938270
   0.91617    -10.937822
   0.92846    -10.937330
   0.94075    -10.936796
   0.95304    -10.936240
   0.96533    -10.935658
   0.97762    -10.935075
   0.98991    -10.934494
   1.00220    -10.933942
   1.01449    -10.933433
   1.02678    -10.932983
   1.03907    -10.932599
   1.05136    -10.932314
   1.06365    -10.932136
   1.07594    -10.932084
   1.08823    -10.932190
   1.10052    -10.932469
   1.11281    -10.932935
   1.12510    -10.933614
   1.13739    -10.934526
   1.14968    -10.935686
   1.16197    -10.937118
   1.17426    -10.938840
   1.18655    -10.940861
   1.19884    -10.943203
   1.21114    -10.945879
   1.22343    -10.948899
   1.23572    -10.952269
   1.24801    -10.956001
   1.26030    -10.960097
   1.27259    -10.964555
   1.28488    -10.969374
   1.29717    -10.974541
   1.30946    -10.979651
   1.30946    -10.979651
   1.33404    -10.969492
   1.35862    -10.960442
   1.38320    -10.953166
   1.40778    -10.947825
   1.43236    -10.944539
   1.45694    -10.943405
   1.48152    -10.944484
   1.50610    -10.947799
   1.53068    -10.953346
   1.55526    -10.961082
   1.57985    -10.970930
   1.60443    -10.982772
   1.62901    -10.996478
   1.65359    -11.011885
   1.67817    -11.028819
   1.70275    -11.047083
   1.72733    -11.066481
   1.75191    -11.086792
   1.77649    -11.107774
   1.80107    -11.099166
   1.82565    -11.083378
   1.85023    -11.065642
   1.87481    -11.046241
   1.89939    -11.025484
   1.92397    -11.003700
   1.94856    -10.981221
   1.97314    -10.958424
   1.99772    -10.935676
   2.02230    -10.913329
   2.04688    -10.891752
   2.07146    -10.871301
   2.09604    -10.852326
   2.12062    -10.835141
   2.14520    -10.820054
   2.16978    -10.807320
   2.19436    -10.797169
   2.21894    -10.789784
   2.24352    -10.785295
   2.26810    -10.783790
 
# Band-Index    4
   2.26810     -6.183578
   2.24352     -6.182401
   2.21894     -6.179089
   2.19436     -6.173658
   2.16978     -6.166325
   2.14520     -6.157302
   2.12062     -6.146782
   2.09604     -6.135165
   2.07146     -6.122735
   2.04688     -6.110048
   2.02230     -6.097469
   1.99772     -6.085596
   1.97314     -6.074926
   1.94856     -6.066140
   1.92397     -6.059754
   1.89939     -6.056332
   1.87481     -6.056438
   1.85023     -6.060528
   1.82565     -6.068960
   1.80107     -6.081900
   1.77649     -6.099320
   1.75191     -6.121070
   1.72733     -6.146669
   1.70275     -6.175507
   1.67817     -6.206846
   1.65359     -6.239757
   1.62901     -6.273271
   1.60443     -6.306376
   1.57985     -6.338039
   1.55526     -6.367260
   1.53068     -6.393073
   1.50610     -6.414601
   1.48152     -6.431051
   1.45694     -6.441743
   1.43236     -6.446087
   1.40778     -6.443584
   1.38320     -6.433875
   1.35862     -6.416716
   1.33404     -6.391977
   1.30946     -6.359989
   1.30946     -6.359989
   1.29717     -6.377484
   1.28488     -6.396276
   1.27259     -6.415560
   1.26030     -6.435307
   1.24801     -6.455456
   1.23572     -6.475959
   1.22343     -6.496771
   1.21114     -6.517773
   1.19884     -6.538911
   1.18655     -6.560114
   1.17426     -6.581309
   1.16197     -6.602389
   1.14968     -6.623299
   1.13739     -6.643983
   1.12510     -6.664334
   1.11281     -6.684322
   1.10052     -6.703853
   1.08823     -6.722862
   1.07594     -6.741325
   1.06365     -6.759178
   1.05136     -6.776376
   1.03907     -6.792856
   1.02678     -6.808594
   1.01449     -6.823548
   1.00220     -6.837686
   0.98991     -6.850983
   0.97762     -6.863395
   0.96533     -6.874900
   0.95304     -6.885479
   0.94075     -6.895112
   0.92846     -6.903767
   0.91617     -6.911450
   0.90388     -6.918130
   0.89159     -6.923806
   0.87930     -6.928464
   0.86701     -6.932098
   0.85471     -6.934692
   0.84242     -6.936253
   0.83013     -6.936773
   0.83013     -6.936773
   0.80885     -6.933232
   0.78756     -6.922669
   0.76628     -6.905199
   0.74499     -6.881071
   0.72371     -6.850635
   0.70242     -6.814317
   0.68114     -6.772632
   0.65985     -6.726188
   0.63856     -6.675709
   0.61728     -6.621984
   0.59599     -6.565980
   0.57471     -6.508674
   0.55342     -6.451230
   0.53214     -6.394840
   0.51085     -6.340737
   0.48957     -6.290146
   0.46828     -6.244194
   0.44700     -6.203855
   0.42571     -6.169770
   0.40442     -6.142358
   0.38314     -6.121521
   0.36185     -6.106887
   0.34057     -6.097890
   0.31928     -6.093718
   0.29800     -6.093671
   0.27671     -6.096868
   0.25543     -6.102577
   0.23414     -6.110104
   0.21285     -6.118820
   0.19157     -6.128216
   0.17028     -6.137785
   0.14900     -6.147104
   0.12771     -6.155853
   0.10643     -6.163776
   0.08514     -6.170624
   0.06386     -6.176139
   0.04257     -6.180116
   0.02129     -6.182652
   0.00000     -6.183578
 
# Band-Index    5
   0.00000     -6.183452
   0.02129     -6.182312
   0.04257     -6.178432
   0.06386     -6.172039
   0.08514     -6.163083
   0.10643     -6.151616
   0.12771     -6.137594
   0.14900     -6.121210
   0.17028     -6.102436
   0.19157     -6.081269
   0.21285     -6.057851
   0.23414     -6.032175
   0.25543     -6.004396
   0.27671     -5.974562
   0.29800     -5.942799
   0.31928     -5.909165
   0.34057     -5.873826
   0.36185     -5.836893
   0.38314     -5.798580
   0.40442     -5.758929
   0.42571     -5.718190
   0.44700     -5.676587
   0.46828     -5.634262
   0.48957     -5.591512
   0.51085     -5.548579
   0.53214     -5.505737
   0.55342     -5.463287
   0.57471     -5.421581
   0.59599     -5.381032
   0.61728     -5.341910
   0.63856     -5.304667
   0.65985     -5.269722
   0.68114     -5.237507
   0.70242     -5.208432
   0.72371     -5.182969
   0.74499     -5.161525
   0.76628     -5.144402
   0.78756     -5.131958
   0.80885     -5.124370
   0.83013     -5.121828
   0.83013     -5.121828
   0.84242     -5.124306
   0.85471     -5.131651
   0.86701     -5.143695
   0.87930     -5.160177
   0.89159     -5.180747
   0.90388     -5.205069
   0.91617     -5.232723
   0.92846     -5.263296
   0.94075     -5.296402
   0.95304     -5.331645
   0.96533     -5.368731
   0.97762     -5.407356
   0.98991     -5.447185
   1.00220     -5.488007
   1.01449     -5.529562
   1.02678     -5.571669
   1.03907     -5.614065
   1.05136     -5.656625
   1.06365     -5.699131
   1.07594     -5.741456
   1.08823     -5.783515
   1.10052     -5.825066
   1.11281     -5.866017
   1.12510     -5.906270
   1.13739     -5.945689
   1.14968     -5.984161
   1.16197     -6.021602
   1.17426     -6.057923
   1.18655     -6.092993
   1.19884     -6.126739
   1.21114     -6.159090
   1.22343     -6.189970
   1.23572     -6.219300
   1.24801     -6.247048
   1.26030     -6.273122
   1.27259     -6.297450
   1.28488     -6.320042
   1.29717     -6.340817
   1.30946     -6.358964
   1.30946     -6.358964
   1.33404     -6.324311
   1.35862     -6.291358
   1.38320     -6.260082
   1.40778     -6.229988
   1.43236     -6.200467
   1.45694     -6.170915
   1.48152     -6.140725
   1.50610     -6.109468
   1.53068     -6.076847
   1.55526     -6.042769
   1.57985     -6.007410
   1.60443     -5.971225
   1.62901     -5.934956
   1.65359     -5.899694
   1.67817     -5.866873
   1.70275     -5.838197
   1.72733     -5.815509
   1.75191     -5.800409
   1.77649     -5.793934
   1.80107     -5.796322
   1.82565     -5.806896
   1.85023     -5.824425
   1.87481     -5.847325
   1.89939     -5.874125
   1.92397     -5.903420
   1.94856     -5.934036
   1.97314     -5.965009
   1.99772     -5.995590
   2.02230     -6.025092
   2.04688     -6.053040
   2.07146     -6.078942
   2.09604     -6.102534
   2.12062     -6.123429
   2.14520     -6.141436
   2.16978     -6.156386
   2.19436     -6.168215
   2.21894     -6.176737
   2.24352     -6.181872
   2.26810     -6.183452
 
# Band-Index    6
   2.26810     -4.830460
   2.24352     -4.829547
   2.21894     -4.826824
   2.19436     -4.822395
   2.16978     -4.816461
   2.14520     -4.809283
   2.12062     -4.801233
   2.09604     -4.792869
   2.07146     -4.784781
   2.04688     -4.777898
   2.02230     -4.773326
   1.99772     -4.772335
   1.97314     -4.776309
   1.94856     -4.786605
   1.92397     -4.804000
   1.89939     -4.828331
   1.87481     -4.858323
   1.85023     -4.891595
   1.82565     -4.925143
   1.80107     -4.955974
   1.77649     -4.981569
   1.75191     -5.000428
   1.72733     -5.012204
   1.70275     -5.017816
   1.67817     -5.019068
   1.65359     -5.018086
   1.62901     -5.017066
   1.60443     -5.017837
   1.57985     -5.021837
   1.55526     -5.029922
   1.53068     -5.042391
   1.50610     -5.058950
   1.48152     -5.078860
   1.45694     -5.100940
   1.43236     -5.123718
   1.40778     -5.145597
   1.38320     -5.164915
   1.35862     -5.180154
   1.33404     -5.189984
   1.30946     -5.193420
   1.30946     -5.193420
   1.29717     -5.192547
   1.28488     -5.189867
   1.27259     -5.185369
   1.26030     -5.179064
   1.24801     -5.170952
   1.23572     -5.161105
   1.22343     -5.149587
   1.21114     -5.136446
   1.19884     -5.121775
   1.18655     -5.105672
   1.17426     -5.088240
   1.16197     -5.069568
   1.14968     -5.049794
   1.13739     -5.029042
   1.12510     -5.007414
   1.11281     -4.985073
   1.10052     -4.962135
   1.08823     -4.938725
   1.07594     -4.914980
   1.06365     -4.891078
   1.05136     -4.867141
   1.03907     -4.843296
   1.02678     -4.819711
   1.01449     -4.796526
   1.00220     -4.773899
   0.98991     -4.751985
   0.97762     -4.730926
   0.96533     -4.710863
   0.95304     -4.691958
   0.94075     -4.674358
   0.92846     -4.658185
   0.91617     -4.643578
   0.90388     -4.630641
   0.89159     -4.619505
   0.87930     -4.610259
   0.86701     -4.602978
   0.85471     -4.597729
   0.84242     -4.594560
   0.83013     -4.593501
   0.83013     -4.593501
   0.80885     -4.596915
   0.78756     -4.606869
   0.76628     -4.622571
   0.74499     -4.642902
   0.72371     -4.666675
   0.70242     -4.692710
   0.68114     -4.719924
   0.65985     -4.747329
   0.63856     -4.774070
   0.61728     -4.799330
   0.59599     -4.822391
   0.57471     -4.842501
   0.55342     -4.859040
   0.53214     -4.871365
   0.51085     -4.878904
   0.48957     -4.881281
   0.46828     -4.878363
   0.44700     -4.870417
   0.42571     -4.858083
   0.40442     -4.842683
   0.38314     -4.825745
   0.36185     -4.809100
   0.34057     -4.794472
   0.31928     -4.783087
   0.29800     -4.775647
   0.27671     -4.772161
   0.25543     -4.772211
   0.23414     -4.775114
   0.21285     -4.780091
   0.19157     -4.786412
   0.17028     -4.793487
   0.14900     -4.800756
   0.12771     -4.807787
   0.10643     -4.814244
   0.08514     -4.819829
   0.06386     -4.824380
   0.04257     -4.827719
   0.02129     -4.829775
   0.00000     -4.830460
 
# Band-Index    7
   0.00000     -3.080065
   0.02129     -3.077652
   0.04257     -3.070489
   0.06386     -3.058911
   0.08514     -3.043985
   0.10643     -3.033136
   0.12771     -3.084157
   0.14900     -3.176906
   0.17028     -3.273892
   0.19157     -3.370268
   0.21285     -3.463784
   0.23414     -3.552682
   0.25543     -3.635183
   0.27671     -3.709643
   0.29800     -3.774477
   0.31928     -3.828331
   0.34057     -3.870334
   0.36185     -3.900158
   0.38314     -3.918346
   0.40442     -3.925912
   0.42571     -3.924385
   0.44700     -3.915503
   0.46828     -3.900969
   0.48957     -3.882569
   0.51085     -3.862039
   0.53214     -3.841188
   0.55342     -3.821908
   0.57471     -3.806153
   0.59599     -3.795752
   0.61728     -3.792077
   0.63856     -3.795654
   0.65985     -3.805980
   0.68114     -3.821699
   0.70242     -3.840964
   0.72371     -3.861790
   0.74499     -3.882293
   0.76628     -3.900629
   0.78756     -3.915161
   0.80885     -3.924504
   0.83013     -3.927733
   0.83013     -3.927733
   0.84242     -3.925803
   0.85471     -3.920030
   0.86701     -3.910593
   0.87930     -3.897744
   0.89159     -3.881770
   0.90388     -3.863098
   0.91617     -3.842070
   0.92846     -3.819063
   0.94075     -3.794389
   0.95304     -3.768392
   0.96533     -3.741380
   0.97762     -3.713598
   0.98991     -3.685195
   1.00220     -3.656464
   1.01449     -3.627460
   1.02678     -3.598401
   1.03907     -3.569276
   1.05136     -3.540292
   1.06365     -3.511410
   1.07594     -3.482728
   1.08823     -3.454268
   1.10052     -3.426046
   1.11281     -3.398066
   1.12510     -3.370350
   1.13739     -3.342897
   1.14968     -3.315701
   1.16197     -3.288792
   1.17426     -3.262157
   1.18655     -3.235804
   1.19884     -3.209756
   1.21114     -3.184032
   1.22343     -3.158669
   1.23572     -3.133693
   1.24801     -3.109177
   1.26030     -3.085140
   1.27259     -3.061648
   1.28488     -3.038794
   1.29717     -3.016605
   1.30946     -2.996769
   1.30946     -2.996769
   1.33404     -3.039312
   1.35862     -3.090363
   1.38320     -3.145667
   1.40778     -3.203346
   1.43236     -3.261885
   1.45694     -3.320081
   1.48152     -3.377028
   1.50610     -3.432103
   1.53068     -3.484887
   1.55526     -3.535194
   1.57985     -3.583064
   1.60443     -3.628610
   1.62901     -3.672012
   1.65359     -3.713422
   1.67817     -3.752850
   1.70275     -3.790124
   1.72733     -3.824834
   1.75191     -3.856255
   1.77649     -3.883388
   1.80107     -3.904896
   1.82565     -3.919100
   1.85023     -3.924008
   1.87481     -3.917443
   1.89939     -3.897462
   1.92397     -3.862629
   1.94856     -3.812468
   1.97314     -3.747676
   1.99772     -3.669791
   2.02230     -3.580754
   2.04688     -3.482779
   2.07146     -3.378000
   2.09604     -3.268748
   2.12062     -3.157235
   2.14520     -3.046290
   2.16978     -3.031625
   2.19436     -3.051982
   2.21894     -3.067340
   2.24352     -3.076851
   2.26810     -3.080065
 
# Band-Index    8
   2.26810     -2.685426
   2.24352     -2.705063
   2.21894     -2.760466
   2.19436     -2.841786
   2.16978     -2.939486
   2.14520     -3.007686
   2.12062     -2.982425
   2.09604     -2.959246
   2.07146     -2.942612
   2.04688     -2.936837
   2.02230     -2.943924
   1.99772     -2.963309
   1.97314     -2.992798
   1.94856     -3.029855
   1.92397     -3.071837
   1.89939     -3.116191
   1.87481     -3.160526
   1.85023     -3.202639
   1.82565     -3.240625
   1.80107     -3.273005
   1.77649     -3.298598
   1.75191     -3.316724
   1.72733     -3.326990
   1.70275     -3.329391
   1.67817     -3.324267
   1.65359     -3.312167
   1.62901     -3.293858
   1.60443     -3.270257
   1.57985     -3.242427
   1.55526     -3.211502
   1.53068     -3.178710
   1.50610     -3.145350
   1.48152     -3.112801
   1.45694     -3.082472
   1.43236     -3.055714
   1.40778     -3.033693
   1.38320     -3.017092
   1.35862     -3.005926
   1.33404     -2.999507
   1.30946     -2.995331
   1.30946     -2.995331
   1.29717     -2.996229
   1.28488     -2.996213
   1.27259     -2.996523
   1.26030     -2.997092
   1.24801     -2.997830
   1.23572     -2.998718
   1.22343     -2.999748
   1.21114     -3.000908
   1.19884     -3.002218
   1.18655     -3.003715
   1.17426     -3.005440
   1.16197     -3.007416
   1.14968     -3.009719
   1.13739     -3.012397
   1.12510     -3.015456
   1.11281     -3.018952
   1.10052     -3.022875
   1.08823     -3.027225
   1.07594     -3.031998
   1.06365     -3.037156
   1.05136     -3.042666
   1.03907     -3.048455
   1.02678     -3.054463
   1.01449     -3.060609
   1.00220     -3.066826
   0.98991     -3.073029
   0.97762     -3.079134
   0.96533     -3.085054
   0.95304     -3.090712
   0.94075     -3.096056
   0.92846     -3.101008
   0.91617     -3.105504
   0.90388     -3.109507
   0.89159     -3.112969
   0.87930     -3.115861
   0.86701     -3.118136
   0.85471     -3.119775
   0.84242     -3.120766
   0.83013     -3.121090
   0.83013     -3.121090
   0.80885     -3.123697
   0.78756     -3.131323
   0.76628     -3.143375
   0.74499     -3.158832
   0.72371     -3.176355
   0.70242     -3.194231
   0.68114     -3.210398
   0.65985     -3.222572
   0.63856     -3.228500
   0.61728     -3.226309
   0.59599     -3.214961
   0.57471     -3.194419
   0.55342     -3.165518
   0.53214     -3.129558
   0.51085     -3.087978
   0.48957     -3.042228
   0.46828     -2.993763
   0.44700     -2.944138
   0.42571     -2.895144
   0.40442     -2.849024
   0.38314     -2.808473
   0.36185     -2.776560
   0.34057     -2.756175
   0.31928     -2.749016
   0.29800     -2.754927
   0.27671     -2.771940
   0.25543     -2.797194
   0.23414     -2.827739
   0.21285     -2.861042
   0.19157     -2.895023
   0.17028     -2.927985
   0.14900     -2.958221
   0.12771     -2.981834
   0.10643     -2.963025
   0.08514     -2.884042
   0.06386     -2.806410
   0.04257     -2.742596
   0.02129     -2.700181
   0.00000     -2.685426
 
# Band-Index    9
   0.00000     -2.685120
   0.02129     -2.685399
   0.04257     -2.685375
   0.06386     -2.685369
   0.08514     -2.685429
   0.10643     -2.685563
   0.12771     -2.685748
   0.14900     -2.686093
   0.17028     -2.686652
   0.19157     -2.687527
   0.21285     -2.688763
   0.23414     -2.690420
   0.25543     -2.692655
   0.27671     -2.695531
   0.29800     -2.699199
   0.31928     -2.703742
   0.34057     -2.709265
   0.36185     -2.715852
   0.38314     -2.723727
   0.40442     -2.732816
   0.42571     -2.743246
   0.44700     -2.755073
   0.46828     -2.768268
   0.48957     -2.782843
   0.51085     -2.798704
   0.53214     -2.815748
   0.55342     -2.833862
   0.57471     -2.852750
   0.59599     -2.872224
   0.61728     -2.891908
   0.63856     -2.911494
   0.65985     -2.930589
   0.68114     -2.948789
   0.70242     -2.965663
   0.72371     -2.980860
   0.74499     -2.993926
   0.76628     -3.004469
   0.78756     -3.012253
   0.80885     -3.017005
   0.83013     -3.018608
   0.83013     -3.018608
   0.84242     -3.018450
   0.85471     -3.018010
   0.86701     -3.017274
   0.87930     -3.016222
   0.89159     -3.014856
   0.90388     -3.013179
   0.91617     -3.011182
   0.92846     -3.008822
   0.94075     -3.006127
   0.95304     -3.003047
   0.96533     -2.999625
   0.97762     -2.995879
   0.98991     -2.991756
   1.00220     -2.987307
   1.01449     -2.982548
   1.02678     -2.977505
   1.03907     -2.972183
   1.05136     -2.966637
   1.06365     -2.960869
   1.07594     -2.955002
   1.08823     -2.949079
   1.10052     -2.943146
   1.11281     -2.937296
   1.12510     -2.931634
   1.13739     -2.926312
   1.14968     -2.921436
   1.16197     -2.917186
   1.17426     -2.913752
   1.18655     -2.911336
   1.19884     -2.910188
   1.21114     -2.910569
   1.22343     -2.912756
   1.23572     -2.917015
   1.24801     -2.923594
   1.26030     -2.932676
   1.27259     -2.944345
   1.28488     -2.958645
   1.29717     -2.975477
   1.30946     -2.994405
   1.30946     -2.994405
   1.33404     -2.954488
   1.35862     -2.916844
   1.38320     -2.881625
   1.40778     -2.847857
   1.43236     -2.814347
   1.45694     -2.780074
   1.48152     -2.744344
   1.50610     -2.706766
   1.53068     -2.667241
   1.55526     -2.625843
   1.57985     -2.582838
   1.60443     -2.538592
   1.62901     -2.493607
   1.65359     -2.448445
   1.67817     -2.403833
   1.70275     -2.360648
   1.72733     -2.320015
   1.75191     -2.283458
   1.77649     -2.253336
   1.80107     -2.233479
   1.82565     -2.229210
   1.85023     -2.244502
   1.87481     -2.277833
   1.89939     -2.323867
   1.92397     -2.377281
   1.94856     -2.433951
   1.97314     -2.490506
   1.99772     -2.543864
   2.02230     -2.590815
   2.04688     -2.628391
   2.07146     -2.654768
   2.09604     -2.670726
   2.12062     -2.679089
   2.14520     -2.682974
   2.16978     -2.684591
   2.19436     -2.685216
   2.21894     -2.685389
   2.24352     -2.685436
   2.26810     -2.685120
 
# Band-Index   10
   2.26810     -1.629334
   2.24352     -1.610456
   2.21894     -1.559067
   2.19436     -1.488637
   2.16978     -1.419498
   2.14520     -1.379565
   2.12062     -1.408902
   2.09604     -1.484319
   2.07146     -1.559689
   2.04688     -1.632652
   2.02230     -1.701115
   1.99772     -1.763648
   1.97314     -1.819343
   1.94856     -1.867921
   1.92397     -1.909426
   1.89939     -1.943869
   1.87481     -1.970576
   1.85023     -1.987561
   1.82565     -1.992516
   1.80107     -1.986522
   1.77649     -1.976188
   1.75191     -2.018035
   1.72733     -2.059681
   1.70275     -2.100182
   1.67817     -2.139275
   1.65359     -2.176626
   1.62901     -2.211966
   1.60443     -2.245088
   1.57985     -2.275901
   1.55526     -2.304423
   1.53068     -2.330830
   1.50610     -2.355328
   1.48152     -2.378144
   1.45694     -2.399430
   1.43236     -2.419154
   1.40778     -2.437065
   1.38320     -2.452605
   1.35862     -2.464838
   1.33404     -2.472437
   1.30946     -2.473958
   1.30946     -2.473958
   1.29717     -2.474388
   1.28488     -2.473710
   1.27259     -2.472040
   1.26030     -2.469565
   1.24801     -2.466387
   1.23572     -2.462618
   1.22343     -2.458332
   1.21114     -2.453564
   1.19884     -2.448312
   1.18655     -2.442564
   1.17426     -2.436261
   1.16197     -2.429334
   1.14968     -2.421721
   1.13739     -2.413357
   1.12510     -2.404137
   1.11281     -2.394000
   1.10052     -2.382860
   1.08823     -2.370640
   1.07594     -2.357313
   1.06365     -2.342890
   1.05136     -2.327323
   1.03907     -2.310618
   1.02678     -2.292838
   1.01449     -2.274032
   1.00220     -2.254295
   0.98991     -2.233726
   0.97762     -2.212473
   0.96533     -2.190684
   0.95304     -2.168575
   0.94075     -2.146405
   0.92846     -2.124426
   0.91617     -2.103047
   0.90388     -2.082644
   0.89159     -2.063783
   0.87930     -2.056281
   0.86701     -2.055793
   0.85471     -2.055527
   0.84242     -2.055412
   0.83013     -2.055382
   0.83013     -2.055382
   0.80885     -2.054312
   0.78756     -2.051047
   0.76628     -2.045395
   0.74499     -2.037229
   0.72371     -2.026539
   0.70242     -2.013520
   0.68114     -1.998624
   0.65985     -1.982546
   0.63856     -1.966206
   0.61728     -1.950653
   0.59599     -1.937060
   0.57471     -1.926565
   0.55342     -1.920254
   0.53214     -1.918917
   0.51085     -1.922985
   0.48957     -1.932423
   0.46828     -1.946602
   0.44700     -1.964298
   0.42571     -1.983496
   0.40442     -2.001605
   0.38314     -2.015190
   0.36185     -2.020412
   0.34057     -2.013705
   0.31928     -1.992640
   0.29800     -1.956909
   0.27671     -1.908106
   0.25543     -1.848927
   0.23414     -1.782374
   0.21285     -1.711315
   0.19157     -1.638471
   0.17028     -1.566791
   0.14900     -1.500231
   0.12771     -1.446699
   0.10643     -1.426417
   0.08514     -1.459225
   0.06386     -1.518657
   0.04257     -1.575413
   0.02129     -1.615091
   0.00000     -1.629334
 
# Band-Index   11
   0.00000     -1.123540
   0.02129     -1.131453
   0.04257     -1.153468
   0.06386     -1.184666
   0.08514     -1.214478
   0.10643     -1.216960
   0.12771     -1.222008
   0.14900     -1.252201
   0.17028     -1.284629
   0.19157     -1.318833
   0.21285     -1.354386
   0.23414     -1.390929
   0.25543     -1.428116
   0.27671     -1.465638
   0.29800     -1.503217
   0.31928     -1.540573
   0.34057     -1.577440
   0.36185     -1.613586
   0.38314     -1.648817
   0.40442     -1.682904
   0.42571     -1.715681
   0.44700     -1.747011
   0.46828     -1.776727
   0.48957     -1.804755
   0.51085     -1.831000
   0.53214     -1.855421
   0.55342     -1.877977
   0.57471     -1.898702
   0.59599     -1.917616
   0.61728     -1.934686
   0.63856     -1.949984
   0.65985     -1.963537
   0.68114     -1.975390
   0.70242     -1.985571
   0.72371     -1.994139
   0.74499     -2.001106
   0.76628     -2.006493
   0.78756     -2.010345
   0.80885     -2.012634
   0.83013     -2.013399
   0.83013     -2.013399
   0.84242     -2.015666
   0.85471     -2.022324
   0.86701     -2.032963
   0.87930     -2.046985
   0.89159     -2.057091
   0.90388     -2.058434
   0.91617     -2.060407
   0.92846     -2.063141
   0.94075     -2.066807
   0.95304     -2.071483
   0.96533     -2.077284
   0.97762     -2.084266
   0.98991     -2.092468
   1.00220     -2.101908
   1.01449     -2.112595
   1.02678     -2.124508
   1.03907     -2.137614
   1.05136     -2.151877
   1.06365     -2.167207
   1.07594     -2.183553
   1.08823     -2.200829
   1.10052     -2.218954
   1.11281     -2.237789
   1.12510     -2.257218
   1.13739     -2.277114
   1.14968     -2.297270
   1.16197     -2.317522
   1.17426     -2.337642
   1.18655     -2.357365
   1.19884     -2.376425
   1.21114     -2.394525
   1.22343     -2.411348
   1.23572     -2.426583
   1.24801     -2.439957
   1.26030     -2.451239
   1.27259     -2.460257
   1.28488     -2.466967
   1.29717     -2.471386
   1.30946     -2.473557
   1.30946     -2.473557
   1.33404     -2.468425
   1.35862     -2.456112
   1.38320     -2.435918
   1.40778     -2.407850
   1.43236     -2.372842
   1.45694     -2.332369
   1.48152     -2.288139
   1.50610     -2.241799
   1.53068     -2.194922
   1.55526     -2.148940
   1.57985     -2.105262
   1.60443     -2.065247
   1.62901     -2.030226
   1.65359     -2.001473
   1.67817     -1.980158
   1.70275     -1.967102
   1.72733     -1.962619
   1.75191     -1.966125
   1.77649     -1.974750
   1.80107     -1.932105
   1.82565     -1.888156
   1.85023     -1.843667
   1.87481     -1.798681
   1.89939     -1.753260
   1.92397     -1.707492
   1.94856     -1.661473
   1.97314     -1.615437
   1.99772     -1.569695
   2.02230     -1.524661
   2.04688     -1.481096
   2.07146     -1.440232
   2.09604     -1.404642
   2.12062     -1.379969
   2.14520     -1.336124
   2.16978     -1.268936
   2.19436     -1.210437
   2.21894     -1.164155
   2.24352     -1.133939
   2.26810     -1.123540
 
# Band-Index   12
   2.26810     -1.122865
   2.24352     -1.127243
   2.21894     -1.137933
   2.19436     -1.149317
   2.16978     -1.148608
   2.14520     -1.113620
   2.12062     -1.037408
   2.09604     -0.939758
   2.07146     -0.913534
   2.04688     -0.937178
   2.02230     -0.963699
   1.99772     -0.992402
   1.97314     -1.022319
   1.94856     -1.052593
   1.92397     -1.082197
   1.89939     -1.110055
   1.87481     -1.135160
   1.85023     -1.156573
   1.82565     -1.173467
   1.80107     -1.185229
   1.77649     -1.191403
   1.75191     -1.191993
   1.72733     -1.187129
   1.70275     -1.213786
   1.67817     -1.253055
   1.65359     -1.291599
   1.62901     -1.328780
   1.60443     -1.363948
   1.57985     -1.396550
   1.55526     -1.426131
   1.53068     -1.452343
   1.50610     -1.474956
   1.48152     -1.493901
   1.45694     -1.509225
   1.43236     -1.521079
   1.40778     -1.529745
   1.38320     -1.535571
   1.35862     -1.539016
   1.33404     -1.540615
   1.30946     -1.540971
   1.30946     -1.540971
   1.29717     -1.540885
   1.28488     -1.540725
   1.27259     -1.540560
   1.26030     -1.540529
   1.24801     -1.540666
   1.23572     -1.541053
   1.22343     -1.541790
   1.21114     -1.542944
   1.19884     -1.544590
   1.18655     -1.546786
   1.17426     -1.549594
   1.16197     -1.553043
   1.14968     -1.557178
   1.13739     -1.562065
   1.12510     -1.567672
   1.11281     -1.574032
   1.10052     -1.581099
   1.08823     -1.588831
   1.07594     -1.597178
   1.06365     -1.606089
   1.05136     -1.615496
   1.03907     -1.625213
   1.02678     -1.635186
   1.01449     -1.645217
   1.00220     -1.655232
   0.98991     -1.665063
   0.97762     -1.674558
   0.96533     -1.683572
   0.95304     -1.691987
   0.94075     -1.699724
   0.92846     -1.706676
   0.91617     -1.712795
   0.90388     -1.718054
   0.89159     -1.722461
   0.87930     -1.726029
   0.86701     -1.728757
   0.85471     -1.730685
   0.84242     -1.731829
   0.83013     -1.732207
   0.83013     -1.732207
   0.80885     -1.731579
   0.78756     -1.729279
   0.76628     -1.724383
   0.74499     -1.715985
   0.72371     -1.703575
   0.70242     -1.687012
   0.68114     -1.666408
   0.65985     -1.641991
   0.63856     -1.614130
   0.61728     -1.583169
   0.59599     -1.549498
   0.57471     -1.513436
   0.55342     -1.475360
   0.53214     -1.435575
   0.51085     -1.394379
   0.48957     -1.352092
   0.46828     -1.309091
   0.44700     -1.265820
   0.42571     -1.222650
   0.40442     -1.180179
   0.38314     -1.138796
   0.36185     -1.098988
   0.34057     -1.061332
   0.31928     -1.026213
   0.29800     -0.994197
   0.27671     -0.965791
   0.25543     -0.941780
   0.23414     -0.923734
   0.21285     -0.916897
   0.19157     -0.940296
   0.17028     -1.007201
   0.14900     -1.090178
   0.12771     -1.168131
   0.10643     -1.194584
   0.08514     -1.170531
   0.06386     -1.150584
   0.04257     -1.135513
   0.02129     -1.126090
   0.00000     -1.122865
 
# Band-Index   13
   0.00000     -0.860194
   0.02129     -0.858478
   0.04257     -0.856073
   0.06386     -0.852718
   0.08514     -0.848977
   0.10643     -0.845438
   0.12771     -0.842535
   0.14900     -0.840625
   0.17028     -0.839908
   0.19157     -0.840407
   0.21285     -0.842321
   0.23414     -0.845537
   0.25543     -0.850030
   0.27671     -0.855672
   0.29800     -0.862351
   0.31928     -0.869994
   0.34057     -0.878386
   0.36185     -0.887362
   0.38314     -0.896878
   0.40442     -0.906671
   0.42571     -0.916623
   0.44700     -0.926623
   0.46828     -0.936455
   0.48957     -0.946058
   0.51085     -0.955298
   0.53214     -0.964035
   0.55342     -0.972267
   0.57471     -0.979896
   0.59599     -0.986957
   0.61728     -0.993288
   0.63856     -1.030740
   0.65985     -1.104219
   0.68114     -1.174889
   0.70242     -1.241423
   0.72371     -1.302561
   0.74499     -1.356851
   0.76628     -1.402504
   0.78756     -1.437478
   0.80885     -1.459636
   0.83013     -1.467271
   0.83013     -1.467271
   0.84242     -1.464650
   0.85471     -1.456870
   0.86701     -1.444370
   0.87930     -1.427739
   0.89159     -1.407612
   0.90388     -1.384744
   0.91617     -1.359728
   0.92846     -1.333121
   0.94075     -1.305404
   0.95304     -1.277053
   0.96533     -1.248570
   0.97762     -1.220384
   0.98991     -1.192890
   1.00220     -1.166644
   1.01449     -1.141980
   1.02678     -1.119328
   1.03907     -1.098769
   1.05136     -1.080434
   1.06365     -1.064068
   1.07594     -1.049553
   1.08823     -1.036625
   1.10052     -1.025009
   1.11281     -1.014462
   1.12510     -1.004817
   1.13739     -0.996020
   1.14968     -0.987894
   1.16197     -0.980449
   1.17426     -0.973613
   1.18655     -0.967310
   1.19884     -0.961553
   1.21114     -0.956355
   1.22343     -0.951718
   1.23572     -0.947669
   1.24801     -0.944218
   1.26030     -0.941344
   1.27259     -0.939048
   1.28488     -0.937452
   1.29717     -0.936458
   1.30946     -0.936113
   1.30946     -0.936113
   1.33404     -0.937418
   1.35862     -0.941439
   1.38320     -0.948196
   1.40778     -0.957594
   1.43236     -0.969570
   1.45694     -0.983971
   1.48152     -1.000592
   1.50610     -1.019182
   1.53068     -1.039366
   1.55526     -1.060673
   1.57985     -1.082626
   1.60443     -1.104609
   1.62901     -1.125939
   1.65359     -1.145749
   1.67817     -1.163176
   1.70275     -1.177232
   1.72733     -1.174419
   1.75191     -1.135555
   1.77649     -1.097538
   1.80107     -1.060771
   1.82565     -1.025526
   1.85023     -0.992058
   1.87481     -0.960611
   1.89939     -0.931472
   1.92397     -0.904951
   1.94856     -0.881331
   1.97314     -0.860973
   1.99772     -0.844274
   2.02230     -0.831591
   2.04688     -0.824163
   2.07146     -0.843908
   2.09604     -0.893410
   2.12062     -0.877363
   2.14520     -0.865775
   2.16978     -0.858745
   2.19436     -0.856054
   2.21894     -0.856661
   2.24352     -0.858715
   2.26810     -0.860194
 
# Band-Index   14
   2.26810     -0.859264
   2.24352     -0.856978
   2.21894     -0.849853
   2.19436     -0.840163
   2.16978     -0.830111
   2.14520     -0.821388
   2.12062     -0.815039
   2.09604     -0.811300
   2.07146     -0.803201
   2.04688     -0.725043
   2.02230     -0.630845
   1.99772     -0.546285
   1.97314     -0.475499
   1.94856     -0.421353
   1.92397     -0.385586
   1.89939     -0.368542
   1.87481     -0.369365
   1.85023     -0.385927
   1.82565     -0.415049
   1.80107     -0.453139
   1.77649     -0.496177
   1.75191     -0.540678
   1.72733     -0.583188
   1.70275     -0.620877
   1.67817     -0.651671
   1.65359     -0.673830
   1.62901     -0.686368
   1.60443     -0.688609
   1.57985     -0.680276
   1.55526     -0.661333
   1.53068     -0.631872
   1.50610     -0.592245
   1.48152     -0.543080
   1.45694     -0.484974
   1.43236     -0.418837
   1.40778     -0.345444
   1.38320     -0.265806
   1.35862     -0.180903
   1.33404     -0.091834
   1.30946     -0.001219
   1.30946     -0.001219
   1.29717     -0.047335
   1.28488     -0.093497
   1.27259     -0.139257
   1.26030     -0.184647
   1.24801     -0.229568
   1.23572     -0.273988
   1.22343     -0.317927
   1.21114     -0.361336
   1.19884     -0.404164
   1.18655     -0.446390
   1.17426     -0.487966
   1.16197     -0.528817
   1.14968     -0.568887
   1.13739     -0.608170
   1.12510     -0.646454
   1.11281     -0.683666
   1.10052     -0.719655
   1.08823     -0.754156
   1.07594     -0.786946
   1.06365     -0.817787
   1.05136     -0.846336
   1.03907     -0.872237
   1.02678     -0.895406
   1.01449     -0.915702
   1.00220     -0.933345
   0.98991     -0.948511
   0.97762     -0.961506
   0.96533     -0.972596
   0.95304     -0.982105
   0.94075     -0.990309
   0.92846     -0.997200
   0.91617     -1.003139
   0.90388     -1.008057
   0.89159     -1.012141
   0.87930     -1.015443
   0.86701     -1.017995
   0.85471     -1.019754
   0.84242     -1.020810
   0.83013     -1.021164
   0.83013     -1.021164
   0.80885     -1.020917
   0.78756     -1.020227
   0.76628     -1.018898
   0.74499     -1.017120
   0.72371     -1.014743
   0.70242     -1.011704
   0.68114     -1.008133
   0.65985     -1.003866
   0.63856     -0.998907
   0.61728     -0.955447
   0.59599     -0.879543
   0.57471     -0.804120
   0.55342     -0.730464
   0.53214     -0.659890
   0.51085     -0.593830
   0.48957     -0.533863
   0.46828     -0.481667
   0.44700     -0.438976
   0.42571     -0.407207
   0.40442     -0.387986
   0.38314     -0.381990
   0.36185     -0.389832
   0.34057     -0.411658
   0.31928     -0.446893
   0.29800     -0.494762
   0.27671     -0.553868
   0.25543     -0.622317
   0.23414     -0.697004
   0.21285     -0.771001
   0.19157     -0.823303
   0.17028     -0.837955
   0.14900     -0.838592
   0.12771     -0.837871
   0.10643     -0.838804
   0.08514     -0.841986
   0.06386     -0.847136
   0.04257     -0.853102
   0.02129     -0.858105
   0.00000     -0.859264
 
# Band-Index   15
   0.00000      1.459543
   0.02129      1.459361
   0.04257      1.458879
   0.06386      1.458087
   0.08514      1.457073
   0.10643      1.455904
   0.12771      1.454683
   0.14900      1.453428
   0.17028      1.452067
   0.19157      1.450046
   0.21285      1.445456
   0.23414      1.432649
   0.25543      1.401083
   0.27671      1.349324
   0.29800      1.288277
   0.31928      1.225684
   0.34057      1.165087
   0.36185      1.108722
   0.38314      1.058146
   0.40442      1.014895
   0.42571      0.980329
   0.44700      0.955339
   0.46828      0.940838
   0.48957      0.936962
   0.51085      0.943494
   0.53214      0.959563
   0.55342      0.983680
   0.57471      1.013612
   0.59599      1.046567
   0.61728      1.079809
   0.63856      1.110391
   0.65985      1.136410
   0.68114      1.156893
   0.70242      1.172125
   0.72371      1.182788
   0.74499      1.189946
   0.76628      1.194527
   0.78756      1.197336
   0.80885      1.198845
   0.83013      1.199289
   0.83013      1.199289
   0.84242      1.200076
   0.85471      1.202421
   0.86701      1.206315
   0.87930      1.211739
   0.89159      1.218666
   0.90388      1.227058
   0.91617      1.236869
   0.92846      1.248020
   0.94075      1.238456
   0.95304      1.212405
   0.96533      1.184506
   0.97762      1.154848
   0.98991      1.123757
   1.00220      1.091095
   1.01449      1.057130
   1.02678      1.021828
   1.03907      0.985454
   1.05136      0.947870
   1.06365      0.909379
   1.07594      0.869880
   1.08823      0.829361
   1.10052      0.787918
   1.11281      0.745654
   1.12510      0.702554
   1.13739      0.658584
   1.14968      0.613949
   1.16197      0.568618
   1.17426      0.522607
   1.18655      0.476182
   1.19884      0.429284
   1.21114      0.381991
   1.22343      0.334389
   1.23572      0.286569
   1.24801      0.238594
   1.26030      0.190606
   1.27259      0.142781
   1.28488      0.095049
   1.29717      0.047657
   1.30946      0.001103
   1.30946      0.001103
   1.33404      0.093603
   1.35862      0.188781
   1.38320      0.284882
   1.40778      0.381658
   1.43236      0.478804
   1.45694      0.575962
   1.48152      0.672729
   1.50610      0.768353
   1.53068      0.861784
   1.55526      0.951389
   1.57985      1.034206
   1.60443      1.105510
   1.62901      1.158327
   1.65359      1.185801
   1.67817      1.187356
   1.70275      1.171112
   1.72733      1.147981
   1.75191      1.126423
   1.77649      1.111633
   1.80107      1.106385
   1.82565      1.112139
   1.85023      1.129199
   1.87481      1.157465
   1.89939      1.196216
   1.92397      1.244810
   1.94856      1.302421
   1.97314      1.368085
   1.99772      1.440919
   2.02230      1.463260
   2.04688      1.457528
   2.07146      1.454659
   2.09604      1.453741
   2.12062      1.454109
   2.14520      1.455137
   2.16978      1.456417
   2.19436      1.457655
   2.21894      1.458656
   2.24352      1.459302
   2.26810      1.459543
 
# Band-Index   16
   2.26810      2.352223
   2.24352      2.317674
   2.21894      2.247233
   2.19436      2.163123
   2.16978      2.071991
   2.14520      1.977359
   2.12062      1.881658
   2.09604      1.786718
   2.07146      1.694083
   2.04688      1.604856
   2.02230      1.520169
   1.99772      1.472722
   1.97314      1.486718
   1.94856      1.505466
   1.92397      1.528333
   1.89939      1.553492
   1.87481      1.577915
   1.85023      1.598077
   1.82565      1.611171
   1.80107      1.616218
   1.77649      1.614301
   1.75191      1.607637
   1.72733      1.598777
   1.70275      1.589731
   1.67817      1.582101
   1.65359      1.576957
   1.62901      1.575009
   1.60443      1.576759
   1.57985      1.582381
   1.55526      1.592216
   1.53068      1.606115
   1.50610      1.624197
   1.48152      1.646254
   1.45694      1.672149
   1.43236      1.701583
   1.40778      1.734164
   1.38320      1.769498
   1.35862      1.807022
   1.33404      1.845905
   1.30946      1.884812
   1.30946      1.884812
   1.29717      1.866229
   1.28488      1.845996
   1.27259      1.825385
   1.26030      1.804353
   1.24801      1.783029
   1.23572      1.761359
   1.22343      1.739369
   1.21114      1.717086
   1.19884      1.694545
   1.18655      1.671772
   1.17426      1.648811
   1.16197      1.625727
   1.14968      1.602549
   1.13739      1.579225
   1.12510      1.556019
   1.11281      1.532835
   1.10052      1.509822
   1.08823      1.487053
   1.07594      1.464562
   1.06365      1.442481
   1.05136      1.420810
   1.03907      1.399711
   1.02678      1.379229
   1.01449      1.359468
   1.00220      1.340494
   0.98991      1.322399
   0.97762      1.305271
   0.96533      1.289214
   0.95304      1.274302
   0.94075      1.260520
   0.92846      1.262638
   0.91617      1.284404
   0.90388      1.304001
   0.89159      1.320931
   0.87930      1.335044
   0.86701      1.346174
   0.85471      1.354317
   0.84242      1.359237
   0.83013      1.360893
   0.83013      1.360893
   0.80885      1.364068
   0.78756      1.373523
   0.76628      1.389471
   0.74499      1.411409
   0.72371      1.439524
   0.70242      1.473781
   0.68114      1.513663
   0.65985      1.559244
   0.63856      1.610267
   0.61728      1.666465
   0.59599      1.727207
   0.57471      1.711207
   0.55342      1.700789
   0.53214      1.695933
   0.51085      1.694142
   0.48957      1.692786
   0.46828      1.689391
   0.44700      1.681822
   0.42571      1.669058
   0.40442      1.651207
   0.38314      1.629667
   0.36185      1.606483
   0.34057      1.583844
   0.31928      1.563941
   0.29800      1.549016
   0.27671      1.542582
   0.25543      1.551912
   0.23414      1.587343
   0.21285      1.646759
   0.19157      1.718648
   0.17028      1.796499
   0.14900      1.877308
   0.12771      1.959413
   0.10643      2.041310
   0.08514      2.121484
   0.06386      2.197967
   0.04257      2.267818
   0.02129      2.325247
   0.00000      2.352222
 
# Band-Index   17
   0.00000      2.458114
   0.02129      2.460594
   0.04257      2.467490
   0.06386      2.478829
   0.08514      2.494408
   0.10643      2.513889
   0.12771      2.536894
   0.14900      2.562857
   0.17028      2.585057
   0.19157      2.582239
   0.21285      2.574950
   0.23414      2.563170
   0.25543      2.546387
   0.27671      2.523745
   0.29800      2.494082
   0.31928      2.456827
   0.34057      2.413187
   0.36185      2.366860
   0.38314      2.322456
   0.40442      2.284673
   0.42571      2.256739
   0.44700      2.240084
   0.46828      2.175077
   0.48957      2.092946
   0.51085      2.013114
   0.53214      1.936184
   0.55342      1.862686
   0.57471      1.793051
   0.59599      1.729909
   0.61728      1.758417
   0.63856      1.799020
   0.65985      1.851941
   0.68114      1.916143
   0.70242      1.989195
   0.72371      2.067237
   0.74499      2.145415
   0.76628      2.217530
   0.78756      2.276462
   0.80885      2.314914
   0.83013      2.328212
   0.83013      2.328212
   0.84242      2.327641
   0.85471      2.325921
   0.86701      2.323026
   0.87930      2.318926
   0.89159      2.313597
   0.90388      2.307016
   0.91617      2.299191
   0.92846      2.290247
   0.94075      2.280134
   0.95304      2.269104
   0.96533      2.257232
   0.97762      2.244747
   0.98991      2.231884
   1.00220      2.218808
   1.01449      2.205736
   1.02678      2.192824
   1.03907      2.180296
   1.05136      2.168227
   1.06365      2.156757
   1.07594      2.145828
   1.08823      2.135389
   1.10052      2.125373
   1.11281      2.115687
   1.12510      2.106138
   1.13739      2.096441
   1.14968      2.086531
   1.16197      2.076092
   1.17426      2.064971
   1.18655      2.053059
   1.19884      2.040229
   1.21114      2.026357
   1.22343      2.011483
   1.23572      1.995597
   1.24801      1.978773
   1.26030      1.961164
   1.27259      1.942895
   1.28488      1.923993
   1.29717      1.904725
   1.30946      1.886435
   1.30946      1.886435
   1.33404      1.924345
   1.35862      1.960629
   1.38320      1.994239
   1.40778      2.024159
   1.43236      2.048548
   1.45694      2.063432
   1.48152      2.061839
   1.50610      2.036646
   1.53068      1.989320
   1.55526      1.929320
   1.57985      1.867198
   1.60443      1.813622
   1.62901      1.779843
   1.65359      1.776509
   1.67817      1.806881
   1.70275      1.865020
   1.72733      1.941472
   1.75191      2.028538
   1.77649      2.120862
   1.80107      2.213249
   1.82565      2.298903
   1.85023      2.367313
   1.87481      2.414628
   1.89939      2.448742
   1.92397      2.476629
   1.94856      2.501208
   1.97314      2.523234
   1.99772      2.542697
   2.02230      2.559187
   2.04688      2.572016
   2.07146      2.580584
   2.09604      2.584209
   2.12062      2.566285
   2.14520      2.533960
   2.16978      2.507000
   2.19436      2.485751
   2.21894      2.470429
   2.24352      2.461192
   2.26810      2.458114
 
# Band-Index   18
   2.26810      2.458959
   2.24352      2.480288
   2.21894      2.513331
   2.19436      2.540771
   2.16978      2.561105
   2.14520      2.574868
   2.12062      2.582472
   2.09604      2.603393
   2.07146      2.644518
   2.04688      2.688297
   2.02230      2.732019
   1.99772      2.767044
   1.97314      2.756350
   1.94856      2.685195
   1.92397      2.606441
   1.89939      2.539347
   1.87481      2.490110
   1.85023      2.461476
   1.82565      2.453656
   1.80107      2.433677
   1.77649      2.406284
   1.75191      2.384100
   1.72733      2.364773
   1.70275      2.347200
   1.67817      2.330679
   1.65359      2.314723
   1.62901      2.299054
   1.60443      2.283529
   1.57985      2.268209
   1.55526      2.253765
   1.53068      2.241740
   1.50610      2.235537
   1.48152      2.238930
   1.45694      2.250164
   1.43236      2.261705
   1.40778      2.268584
   1.38320      2.270555
   1.35862      2.269401
   1.33404      2.267279
   1.30946      2.266163
   1.30946      2.266163
   1.29717      2.266507
   1.28488      2.267660
   1.27259      2.269756
   1.26030      2.272847
   1.24801      2.277078
   1.23572      2.282468
   1.22343      2.288994
   1.21114      2.296689
   1.19884      2.305543
   1.18655      2.315483
   1.17426      2.326481
   1.16197      2.338486
   1.14968      2.351343
   1.13739      2.364883
   1.12510      2.379096
   1.11281      2.393778
   1.10052      2.408812
   1.08823      2.424095
   1.07594      2.439428
   1.06365      2.454657
   1.05136      2.469668
   1.03907      2.484382
   1.02678      2.498602
   1.01449      2.512270
   1.00220      2.525256
   0.98991      2.537527
   0.97762      2.548926
   0.96533      2.559529
   0.95304      2.569197
   0.94075      2.577979
   0.92846      2.585806
   0.91617      2.592679
   0.90388      2.598622
   0.89159      2.603614
   0.87930      2.607651
   0.86701      2.610788
   0.85471      2.613030
   0.84242      2.614370
   0.83013      2.614831
   0.83013      2.614831
   0.80885      2.605724
   0.78756      2.584600
   0.76628      2.560274
   0.74499      2.535917
   0.72371      2.511515
   0.70242      2.486437
   0.68114      2.460379
   0.65985      2.433353
   0.63856      2.405527
   0.61728      2.377317
   0.59599      2.349205
   0.57471      2.321893
   0.55342      2.296045
   0.53214      2.272784
   0.51085      2.253592
   0.48957      2.240281
   0.46828      2.235115
   0.44700      2.258705
   0.42571      2.342937
   0.40442      2.426102
   0.38314      2.506118
   0.36185      2.579778
   0.34057      2.642113
   0.31928      2.687265
   0.29800      2.710770
   0.27671      2.713315
   0.25543      2.700248
   0.23414      2.677670
   0.21285      2.650118
   0.19157      2.620603
   0.17028      2.591082
   0.14900      2.583461
   0.12771      2.577390
   0.10643      2.566698
   0.08514      2.551224
   0.06386      2.530639
   0.04257      2.504777
   0.02129      2.475807
   0.00000      2.458959
 
# Band-Index   19
   0.00000      2.976534
   0.02129      2.985859
   0.04257      3.012456
   0.06386      3.052579
   0.08514      3.101554
   0.10643      3.154158
   0.12771      3.203598
   0.14900      3.237157
   0.17028      3.235178
   0.19157      3.196428
   0.21285      3.137638
   0.23414      3.068675
   0.25543      2.995139
   0.27671      2.922018
   0.29800      2.854817
   0.31928      2.798433
   0.34057      2.755455
   0.36185      2.725873
   0.38314      2.707580
   0.40442      2.698714
   0.42571      2.697653
   0.44700      2.702942
   0.46828      2.713959
   0.48957      2.729659
   0.51085      2.749187
   0.53214      2.771549
   0.55342      2.795727
   0.57471      2.820649
   0.59599      2.845342
   0.61728      2.868849
   0.63856      2.890072
   0.65985      2.907904
   0.68114      2.921095
   0.70242      2.928309
   0.72371      2.928185
   0.74499      2.919787
   0.76628      2.903158
   0.78756      2.880760
   0.80885      2.859249
   0.83013      2.849769
   0.83013      2.849769
   0.84242      2.849013
   0.85471      2.846767
   0.86701      2.843060
   0.87930      2.838013
   0.89159      2.831698
   0.90388      2.824212
   0.91617      2.815679
   0.92846      2.806278
   0.94075      2.796087
   0.95304      2.785280
   0.96533      2.773881
   0.97762      2.762053
   0.98991      2.749897
   1.00220      2.737440
   1.01449      2.724801
   1.02678      2.712016
   1.03907      2.699200
   1.05136      2.686376
   1.06365      2.673720
   1.07594      2.661245
   1.08823      2.649088
   1.10052      2.637334
   1.11281      2.626155
   1.12510      2.615622
   1.13739      2.605803
   1.14968      2.596825
   1.16197      2.588699
   1.17426      2.581464
   1.18655      2.575177
   1.19884      2.569757
   1.21114      2.565168
   1.22343      2.561313
   1.23572      2.558125
   1.24801      2.555533
   1.26030      2.553472
   1.27259      2.551912
   1.28488      2.550779
   1.29717      2.550083
   1.30946      2.549802
   1.30946      2.549802
   1.33404      2.550541
   1.35862      2.552899
   1.38320      2.556872
   1.40778      2.562351
   1.43236      2.569101
   1.45694      2.576821
   1.48152      2.585086
   1.50610      2.593408
   1.53068      2.601096
   1.55526      2.607507
   1.57985      2.611777
   1.60443      2.613034
   1.62901      2.610302
   1.65359      2.602627
   1.67817      2.589166
   1.70275      2.569501
   1.72733      2.544132
   1.75191      2.515125
   1.77649      2.486462
   1.80107      2.463803
   1.82565      2.471717
   1.85023      2.529518
   1.87481      2.609863
   1.89939      2.703552
   1.92397      2.802084
   1.94856      2.900812
   1.97314      2.898015
   1.99772      2.941482
   2.02230      3.032850
   2.04688      3.131079
   2.07146      3.224818
   2.09604      3.271868
   2.12062      3.243726
   2.14520      3.193270
   2.16978      3.133493
   2.19436      3.074227
   2.21894      3.023514
   2.24352      2.988890
   2.26810      2.976535
 
# Band-Index   20
   2.26810      3.645384
   2.24352      3.635455
   2.21894      3.607480
   2.19436      3.565784
   2.16978      3.513868
   2.14520      3.453862
   2.12062      3.386141
   2.09604      3.309972
   2.07146      3.266438
   2.04688      3.227698
   2.02230      3.164811
   1.99772      3.085808
   1.97314      2.996524
   1.94856      2.921000
   1.92397      2.961451
   1.89939      3.003935
   1.87481      3.045787
   1.85023      3.087413
   1.82565      3.130662
   1.80107      3.178068
   1.77649      3.232546
   1.75191      3.296508
   1.72733      3.367826
   1.70275      3.326488
   1.67817      3.284506
   1.65359      3.242692
   1.62901      3.202085
   1.60443      3.164085
   1.57985      3.130602
   1.55526      3.104097
   1.53068      3.087445
   1.50610      3.083988
   1.48152      3.096485
   1.45694      3.126313
   1.43236      3.172494
   1.40778      3.231945
   1.38320      3.300552
   1.35862      3.374162
   1.33404      3.449446
   1.30946      3.522902
   1.30946      3.522902
   1.29717      3.487501
   1.28488      3.454230
   1.27259      3.423676
   1.26030      3.396064
   1.24801      3.371733
   1.23572      3.350862
   1.22343      3.333555
   1.21114      3.319887
   1.19884      3.309882
   1.18655      3.303449
   1.17426      3.300479
   1.16197      3.300803
   1.14968      3.304131
   1.13739      3.310162
   1.12510      3.318687
   1.11281      3.329333
   1.10052      3.341805
   1.08823      3.355829
   1.07594      3.371053
   1.06365      3.387171
   1.05136      3.404023
   1.03907      3.421400
   1.02678      3.439035
   1.01449      3.456845
   1.00220      3.474717
   0.98991      3.492636
   0.97762      3.510583
   0.96533      3.528666
   0.95304      3.546929
   0.94075      3.565503
   0.92846      3.584574
   0.91617      3.604235
   0.90388      3.624593
   0.89159      3.645651
   0.87930      3.667270
   0.86701      3.689086
   0.85471      3.710053
   0.84242      3.727449
   0.83013      3.734970
   0.83013      3.734970
   0.80885      3.733603
   0.78756      3.729493
   0.76628      3.722644
   0.74499      3.713044
   0.72371      3.700753
   0.70242      3.685653
   0.68114      3.667806
   0.65985      3.647239
   0.63856      3.623983
   0.61728      3.598106
   0.59599      3.569683
   0.57471      3.538881
   0.55342      3.505799
   0.53214      3.470679
   0.51085      3.433816
   0.48957      3.395544
   0.46828      3.356427
   0.44700      3.317002
   0.42571      3.278211
   0.40442      3.241266
   0.38314      3.208138
   0.36185      3.181836
   0.34057      3.166753
   0.31928      3.168447
   0.29800      3.190740
   0.27671      3.232078
   0.25543      3.285913
   0.23414      3.345089
   0.21285      3.403848
   0.19157      3.447546
   0.17028      3.428584
   0.14900      3.431801
   0.12771      3.461982
   0.10643      3.503281
   0.08514      3.545775
   0.06386      3.584798
   0.04257      3.616878
   0.02129      3.638062
   0.00000      3.645383
 
# Band-Index   21
   0.00000      3.645633
   0.02129      3.643903
   0.04257      3.639305
   0.06386      3.631071
   0.08514      3.618428
   0.10643      3.600660
   0.12771      3.576708
   0.14900      3.545262
   0.17028      3.505746
   0.19157      3.458231
   0.21285      3.464318
   0.23414      3.463550
   0.25543      3.444843
   0.27671      3.417580
   0.29800      3.390627
   0.31928      3.368789
   0.34057      3.354012
   0.36185      3.347006
   0.38314      3.347838
   0.40442      3.356394
   0.42571      3.372400
   0.44700      3.395283
   0.46828      3.424637
   0.48957      3.459682
   0.51085      3.499492
   0.53214      3.543023
   0.55342      3.588920
   0.57471      3.635668
   0.59599      3.681662
   0.61728      3.725258
   0.63856      3.764659
   0.65985      3.798090
   0.68114      3.823810
   0.70242      3.840600
   0.72371      3.848066
   0.74499      3.847208
   0.76628      3.840612
   0.78756      3.831968
   0.80885      3.825012
   0.83013      3.822369
   0.83013      3.822369
   0.84242      3.830435
   0.85471      3.849458
   0.86701      3.873082
   0.87930      3.898529
   0.89159      3.924693
   0.90388      3.951052
   0.91617      3.977420
   0.92846      4.003739
   0.94075      4.030090
   0.95304      4.056574
   0.96533      4.083252
   0.97762      4.110216
   0.98991      4.137626
   1.00220      4.165480
   1.01449      4.193763
   1.02678      4.194857
   1.03907      4.166097
   1.05136      4.138013
   1.06365      4.110628
   1.07594      4.083770
   1.08823      4.057353
   1.10052      4.031218
   1.11281      4.005320
   1.12510      3.979459
   1.13739      3.953528
   1.14968      3.927417
   1.16197      3.900910
   1.17426      3.873871
   1.18655      3.846364
   1.19884      3.818146
   1.21114      3.789153
   1.22343      3.759299
   1.23572      3.728540
   1.24801      3.696786
   1.26030      3.664019
   1.27259      3.630358
   1.28488      3.595692
   1.29717      3.560197
   1.30946      3.524183
   1.30946      3.524183
   1.33404      3.600292
   1.35862      3.682333
   1.38320      3.766237
   1.40778      3.848792
   1.43236      3.926630
   1.45694      3.996618
   1.48152      4.055624
   1.50610      4.100276
   1.53068      4.122129
   1.55526      4.082416
   1.57985      3.985909
   1.60443      3.877378
   1.62901      3.766667
   1.65359      3.657778
   1.67817      3.553891
   1.70275      3.457729
   1.72733      3.371546
   1.75191      3.408077
   1.77649      3.446747
   1.80107      3.483475
   1.82565      3.518026
   1.85023      3.550099
   1.87481      3.579286
   1.89939      3.605016
   1.92397      3.626329
   1.94856      3.641843
   1.97314      3.649570
   1.99772      3.647354
   2.02230      3.634291
   2.04688      3.612830
   2.07146      3.591062
   2.09604      3.580150
   2.12062      3.584749
   2.14520      3.598760
   2.16978      3.614297
   2.19436      3.627637
   2.21894      3.637562
   2.24352      3.643519
   2.26810      3.645634
 
# Band-Index   22
   2.26810      4.123639
   2.24352      4.133314
   2.21894      4.160000
   2.19436      4.198087
   2.16978      4.240141
   2.14520      4.268308
   2.12062      4.219977
   2.09604      4.103403
   2.07146      3.985754
   2.04688      3.884566
   2.02230      3.804268
   1.99772      3.745069
   1.97314      3.705582
   1.94856      3.684044
   1.92397      3.678848
   1.89939      3.688517
   1.87481      3.711317
   1.85023      3.745146
   1.82565      3.787462
   1.80107      3.835653
   1.77649      3.887256
   1.75191      3.939821
   1.72733      3.991320
   1.70275      4.039837
   1.67817      4.083588
   1.65359      4.120968
   1.62901      4.150384
   1.60443      4.170554
   1.57985      4.181202
   1.55526      4.188351
   1.53068      4.233395
   1.50610      4.318870
   1.48152      4.404556
   1.45694      4.481983
   1.43236      4.548652
   1.40778      4.603355
   1.38320      4.645571
   1.35862      4.675201
   1.33404      4.692548
   1.30946      4.698171
   1.30946      4.698171
   1.29717      4.696816
   1.28488      4.692823
   1.27259      4.686313
   1.26030      4.677357
   1.24801      4.666118
   1.23572      4.652712
   1.22343      4.637232
   1.21114      4.619803
   1.19884      4.600576
   1.18655      4.579661
   1.17426      4.557192
   1.16197      4.533380
   1.14968      4.508288
   1.13739      4.482055
   1.12510      4.454891
   1.11281      4.426936
   1.10052      4.398340
   1.08823      4.369309
   1.07594      4.339966
   1.06365      4.310441
   1.05136      4.280894
   1.03907      4.251570
   1.02678      4.222487
   1.01449      4.224433
   1.00220      4.254712
   0.98991      4.285748
   0.97762      4.317487
   0.96533      4.349867
   0.95304      4.382699
   0.94075      4.415782
   0.92846      4.448936
   0.91617      4.481792
   0.90388      4.514020
   0.89159      4.545139
   0.87930      4.574599
   0.86701      4.601692
   0.85471      4.625318
   0.84242      4.643155
   0.83013      4.650391
   0.83013      4.650391
   0.80885      4.649532
   0.78756      4.646930
   0.76628      4.642681
   0.74499      4.636700
   0.72371      4.629082
   0.70242      4.619873
   0.68114      4.609052
   0.65985      4.596746
   0.63856      4.583032
   0.61728      4.568005
   0.59599      4.551752
   0.57471      4.534480
   0.55342      4.516231
   0.53214      4.497142
   0.51085      4.477585
   0.48957      4.457752
   0.46828      4.437931
   0.44700      4.418414
   0.42571      4.397217
   0.40442      4.327402
   0.38314      4.258875
   0.36185      4.192020
   0.34057      4.127281
   0.31928      4.065575
   0.29800      4.008555
   0.27671      3.959575
   0.25543      3.925036
   0.23414      3.915447
   0.21285      3.941609
   0.19157      4.004972
   0.17028      4.095722
   0.14900      4.196625
   0.12771      4.263556
   0.10643      4.252734
   0.08514      4.217767
   0.06386      4.181820
   0.04257      4.151454
   0.02129      4.130920
   0.00000      4.123617
 
# Band-Index   23
   0.00000      4.367922
   0.02129      4.370452
   0.04257      4.377930
   0.06386      4.389944
   0.08514      4.403840
   0.10643      4.410316
   0.12771      4.383771
   0.14900      4.386474
   0.17028      4.420895
   0.19157      4.433960
   0.21285      4.394611
   0.23414      4.363725
   0.25543      4.344099
   0.27671      4.333738
   0.29800      4.330601
   0.31928      4.333342
   0.34057      4.340752
   0.36185      4.351887
   0.38314      4.365820
   0.40442      4.381926
   0.42571      4.399705
   0.44700      4.468201
   0.46828      4.539857
   0.48957      4.611743
   0.51085      4.683244
   0.53214      4.752843
   0.55342      4.818934
   0.57471      4.878133
   0.59599      4.924813
   0.61728      4.951185
   0.63856      4.950582
   0.65985      4.927578
   0.68114      4.890710
   0.70242      4.846652
   0.72371      4.801272
   0.74499      4.761461
   0.76628      4.732233
   0.78756      4.715200
   0.80885      4.709515
   0.83013      4.710833
   0.83013      4.710833
   0.84242      4.713461
   0.85471      4.721384
   0.86701      4.734531
   0.87930      4.752813
   0.89159      4.776087
   0.90388      4.795784
   0.91617      4.811153
   0.92846      4.827270
   0.94075      4.844358
   0.95304      4.862605
   0.96533      4.882178
   0.97762      4.903122
   0.98991      4.925610
   1.00220      4.949674
   1.01449      4.975390
   1.02678      5.002795
   1.03907      5.031936
   1.05136      5.062819
   1.06365      5.095463
   1.07594      5.129857
   1.08823      5.165986
   1.10052      5.203815
   1.11281      5.243328
   1.12510      5.284473
   1.13739      5.327172
   1.14968      5.371393
   1.16197      5.417026
   1.17426      5.463998
   1.18655      5.512245
   1.19884      5.561643
   1.21114      5.612078
   1.22343      5.663433
   1.23572      5.715539
   1.24801      5.768286
   1.26030      5.821584
   1.27259      5.875644
   1.28488      5.928804
   1.29717      5.972186
   1.30946      5.988682
   1.30946      5.988682
   1.33404      5.958541
   1.35862      5.845172
   1.38320      5.758193
   1.40778      5.683916
   1.43236      5.621104
   1.45694      5.569791
   1.48152      5.529532
   1.50610      5.499252
   1.53068      5.476826
   1.55526      5.458633
   1.57985      5.438544
   1.60443      5.408007
   1.62901      5.358949
   1.65359      5.290302
   1.67817      5.209926
   1.70275      5.122372
   1.72733      5.032545
   1.75191      4.943274
   1.77649      4.855412
   1.80107      4.769816
   1.82565      4.687678
   1.85023      4.609259
   1.87481      4.535203
   1.89939      4.466399
   1.92397      4.404157
   1.94856      4.350526
   1.97314      4.308392
   1.99772      4.281628
   2.02230      4.274151
   2.04688      4.288113
   2.07146      4.323829
   2.09604      4.375358
   2.12062      4.432044
   2.14520      4.476861
   2.16978      4.447434
   2.19436      4.405296
   2.21894      4.393643
   2.24352      4.378476
   2.26810      4.368770
 
# Band-Index   24
   2.26810      4.612454
   2.24352      4.624194
   2.21894      4.657396
   2.19436      4.711472
   2.16978      4.616788
   2.14520      4.480623
   2.12062      4.432172
   2.09604      4.466895
   2.07146      4.522119
   2.04688      4.583092
   2.02230      4.646660
   1.99772      4.711843
   1.97314      4.778320
   1.94856      4.845926
   1.92397      4.914729
   1.89939      4.984788
   1.87481      5.056141
   1.85023      5.128780
   1.82565      5.202655
   1.80107      5.276941
   1.77649      5.352001
   1.75191      5.428592
   1.72733      5.503517
   1.70275      5.588782
   1.67817      5.766359
   1.65359      5.828258
   1.62901      5.825542
   1.60443      5.852992
   1.57985      5.871417
   1.55526      5.885558
   1.53068      5.893014
   1.50610      5.900019
   1.48152      5.906879
   1.45694      5.915169
   1.43236      5.926482
   1.40778      5.940365
   1.38320      5.955439
   1.35862      5.969989
   1.33404      5.981849
   1.30946      6.001953
   1.30946      6.001953
   1.29717      6.005287
   1.28488      6.001131
   1.27259      5.992468
   1.26030      5.981247
   1.24801      5.970140
   1.23572      5.956942
   1.22343      5.941326
   1.21114      5.922268
   1.19884      5.899705
   1.18655      5.873553
   1.17426      5.843791
   1.16197      5.810471
   1.14968      5.773669
   1.13739      5.733524
   1.12510      5.690286
   1.11281      5.644195
   1.10052      5.595569
   1.08823      5.544774
   1.07594      5.492164
   1.06365      5.438128
   1.05136      5.383083
   1.03907      5.327463
   1.02678      5.271679
   1.01449      5.216178
   1.00220      5.161400
   0.98991      5.107812
   0.97762      5.055848
   0.96533      5.006033
   0.95304      4.958768
   0.94075      4.914497
   0.92846      4.873735
   0.91617      4.836834
   0.90388      4.804202
   0.89159      4.780971
   0.87930      4.766435
   0.86701      4.752135
   0.85471      4.738376
   0.84242      4.726769
   0.83013      4.721686
   0.83013      4.721686
   0.80885      4.732104
   0.78756      4.754016
   0.76628      4.783885
   0.74499      4.821466
   0.72371      4.867692
   0.70242      4.924844
   0.68114      4.993977
   0.65985      5.068391
   0.63856      5.131940
   0.61728      5.164754
   0.59599      5.178672
   0.57471      5.185279
   0.55342      5.181911
   0.53214      5.168010
   0.51085      5.133036
   0.48957      5.094455
   0.46828      5.050756
   0.44700      5.004056
   0.42571      4.955910
   0.40442      4.907167
   0.38314      4.858488
   0.36185      4.810324
   0.34057      4.762817
   0.31928      4.716235
   0.29800      4.670704
   0.27671      4.626311
   0.25543      4.582987
   0.23414      4.540644
   0.21285      4.499375
   0.19157      4.459202
   0.17028      4.488061
   0.14900      4.552898
   0.12771      4.564282
   0.10643      4.593467
   0.08514      4.704916
   0.06386      4.684470
   0.04257      4.644541
   0.02129      4.620577
   0.00000      4.612226
